Sample Name, DR-10P0,
Time, 2017/07/12 02:19:28,
Operator, Smith,
Lamp,255.00000,
Slit,0.00000,
Scan From, 850.0nm,
Scan To, 390.0nm,
Scan Step, 1.0nm,
Sample Filter,11.00000,
memo, ,
WL(nm), Abs, T%
390,0.02480,94.88
391,0.02430,94.97
392,0.02380,95.07
393,0.02350,95.18
394,0.02300,95.26
395,0.02260,95.35
396,0.02230,95.42
397,0.02180,95.49
398,0.02140,95.6
399,0.02110,95.67
400,0.02070,95.78
401,0.02040,95.84
402,0.02000,95.94
403,0.01960,96.02
404,0.01920,96.09
405,0.01900,96.17
406,0.01860,96.24
407,0.01830,96.32
408,0.01790,96.38
409,0.01760,96.44
410,0.01740,96.52
411,0.01700,96.58
412,0.01680,96.66
413,0.01640,96.74
414,0.01620,96.79
415,0.01580,96.87
416,0.01550,96.92
417,0.01520,97
418,0.01500,97.04
419,0.01460,97.12
420,0.01440,97.19
421,0.01410,97.24
422,0.01380,97.3
423,0.01350,97.36
424,0.01330,97.43
425,0.01310,97.49
426,0.01280,97.55
427,0.01250,97.59
428,0.01220,97.67
429,0.01190,97.72
430,0.01170,97.76
431,0.01150,97.81
432,0.01140,97.87
433,0.01110,97.91
434,0.01100,97.96
435,0.01060,98.02
436,0.01040,98.06
437,0.01020,98.1
438,0.01000,98.14
439,0.00980,98.19
440,0.00960,98.25
441,0.00940,98.29
442,0.00920,98.33
443,0.00900,98.37
444,0.00900,98.41
445,0.00870,98.47
446,0.00860,98.49
447,0.00840,98.53
448,0.00830,98.55
449,0.00820,98.61
450,0.00800,98.65
451,0.00770,98.73
452,0.00760,98.75
453,0.00740,98.78
454,0.00730,98.82
455,0.00720,98.83
456,0.00710,98.88
457,0.00700,98.91
458,0.00680,98.93
459,0.00670,98.95
460,0.00650,98.99
461,0.00640,99.04
462,0.00640,99.05
463,0.00610,99.07
464,0.00610,99.11
465,0.00600,99.14
466,0.00580,99.18
467,0.00560,99.19
468,0.00560,99.22
469,0.00550,99.23
470,0.00530,99.26
471,0.00530,99.29
472,0.00520,99.3
473,0.00500,99.34
474,0.00500,99.35
475,0.00480,99.37
476,0.00470,99.39
477,0.00460,99.42
478,0.00460,99.44
479,0.00450,99.47
480,0.00450,99.48
481,0.00450,99.48
482,0.00440,99.5
483,0.00430,99.53
484,0.00410,99.54
485,0.00400,99.55
486,0.00400,99.58
487,0.00390,99.58
488,0.00390,99.62
489,0.00380,99.63
490,0.00380,99.64
491,0.00370,99.66
492,0.00350,99.67
493,0.00340,99.69
494,0.00340,99.71
495,0.00330,99.72
496,0.00330,99.74
497,0.00330,99.76
498,0.00310,99.79
499,0.00300,99.78
500,0.00310,99.8
501,0.00290,99.81
502,0.00290,99.81
503,0.00290,99.84
504,0.00280,99.83
505,0.00280,99.88
506,0.00280,99.87
507,0.00260,99.88
508,0.00260,99.9
509,0.00250,99.91
510,0.00250,99.92
511,0.00250,99.93
512,0.00250,99.94
513,0.00240,99.96
514,0.00240,99.96
515,0.00220,99.98
516,0.00230,99.98
517,0.00230,99.97
518,0.00220,99.99
519,0.00220,100.01
520,0.00210,100.02
521,0.00200,100.02
522,0.00190,100.04
523,0.00200,100.05
524,0.00180,100.06
525,0.00180,100.07
526,0.00180,100.07
527,0.00170,100.09
528,0.00170,100.1
529,0.00170,100.11
530,0.00160,100.11
531,0.00160,100.11
532,0.00160,100.14
533,0.00150,100.13
534,0.00150,100.14
535,0.00150,100.17
536,0.00140,100.15
537,0.00140,100.18
538,0.00140,100.17
539,0.00140,100.17
540,0.00130,100.19
541,0.00130,100.19
542,0.00120,100.22
543,0.00120,100.23
544,0.00120,100.22
545,0.00120,100.25
546,0.00120,100.24
547,0.00110,100.26
548,0.00110,100.25
549,0.00100,100.28
550,0.00110,100.28
551,0.00100,100.28
552,0.00090,100.29
553,0.00100,100.31
554,0.00090,100.32
555,0.00090,100.32
556,0.00080,100.33
557,0.00090,100.33
558,0.00080,100.34
559,0.00080,100.36
560,0.00080,100.34
561,0.00070,100.36
562,0.00070,100.34
563,0.00070,100.36
564,0.00070,100.38
565,0.00050,100.38
566,0.00050,100.39
567,0.00050,100.39
568,0.00050,100.38
569,0.00050,100.41
570,0.00050,100.39
571,0.00060,100.41
572,0.00050,100.4
573,0.00050,100.43
574,0.00050,100.43
575,0.00050,100.44
576,0.00050,100.45
577,0.00040,100.46
578,0.00050,100.47
579,0.00040,100.47
580,0.00040,100.47
581,0.00040,100.46
582,0.00040,100.46
583,0.00030,100.48
584,0.00030,100.47
585,0.00030,100.47
586,0.00030,100.46
587,0.00030,100.47
588,0.00030,100.47
589,0.00020,100.47
590,0.00010,100.48
591,0.00010,100.49
592,0.00010,100.45
593,0.00020,100.47
594,0.00010,100.51
595,0.00010,100.49
596,0.00000,100.53
597,0.00000,100.5
598,0.00010,100.52
599,0.00000,100.55
600,0.00010,100.52
601,0.00000,100.55
602,-0.00010,100.55
603,0.00000,100.56
604,-0.00010,100.56
605,0.00000,100.56
606,0.00000,100.55
607,0.00000,100.56
608,0.00000,100.57
609,0.00010,100.54
610,0.00010,100.54
611,0.00010,100.54
612,0.00010,100.55
613,0.00010,100.56
614,0.00000,100.57
615,0.00000,100.58
616,0.00000,100.58
617,0.00000,100.58
618,0.00000,100.58
619,-0.00010,100.57
620,0.00000,100.58
621,-0.00010,100.58
622,-0.00010,100.59
623,-0.00010,100.59
624,-0.00020,100.59
625,-0.00020,100.6
626,-0.00010,100.6
627,-0.00020,100.59
628,-0.00020,100.61
629,-0.00030,100.62
630,-0.00010,100.63
631,-0.00020,100.63
632,-0.00020,100.64
633,-0.00020,100.63
634,-0.00030,100.64
635,-0.00020,100.62
636,-0.00020,100.63
637,-0.00020,100.64
638,-0.00020,100.64
639,-0.00020,100.64
640,-0.00010,100.62
641,-0.00030,100.64
642,-0.00030,100.66
643,-0.00040,100.64
644,-0.00040,100.65
645,-0.00030,100.65
646,-0.00040,100.64
647,-0.00030,100.65
648,-0.00030,100.64
649,-0.00040,100.67
650,-0.00040,100.66
651,-0.00040,100.66
652,-0.00040,100.66
653,-0.00040,100.65
654,-0.00050,100.66
655,-0.00050,100.67
656,-0.00050,100.68
657,-0.00060,100.7
658,-0.00050,100.67
659,-0.00040,100.68
660,-0.00040,100.67
661,-0.00050,100.67
662,-0.00050,100.67
663,-0.00050,100.66
664,-0.00050,100.67
665,-0.00050,100.68
666,-0.00050,100.69
667,-0.00050,100.7
668,-0.00040,100.68
669,-0.00050,100.67
670,-0.00040,100.65
671,-0.00040,100.66
672,-0.00040,100.65
673,-0.00050,100.64
674,-0.00050,100.66
675,-0.00060,100.67
676,-0.00060,100.68
677,-0.00050,100.68
678,-0.00060,100.68
679,-0.00050,100.68
680,-0.00060,100.68
681,-0.00060,100.7
682,-0.00060,100.69
683,-0.00070,100.7
684,-0.00070,100.7
685,-0.00080,100.69
686,-0.00070,100.69
687,-0.00080,100.7
688,-0.00070,100.7
689,-0.00080,100.7
690,-0.00070,100.7
691,-0.00080,100.71
692,-0.00080,100.72
693,-0.00080,100.72
694,-0.00080,100.72
695,-0.00080,100.73
696,-0.00080,100.72
697,-0.00090,100.73
698,-0.00080,100.74
699,-0.00090,100.74
700,-0.00080,100.74
701,-0.00090,100.76
702,-0.00100,100.75
703,-0.00090,100.75
704,-0.00090,100.75
705,-0.00100,100.76
706,-0.00090,100.76
707,-0.00100,100.78
708,-0.00090,100.77
709,-0.00090,100.77
710,-0.00090,100.79
711,-0.00100,100.8
712,-0.00110,100.8
713,-0.00110,100.81
714,-0.00100,100.8
715,-0.00110,100.82
716,-0.00110,100.81
717,-0.00120,100.82
718,-0.00110,100.82
719,-0.00120,100.81
720,-0.00110,100.81
721,-0.00120,100.81
722,-0.00120,100.81
723,-0.00110,100.81
724,-0.00110,100.81
725,-0.00110,100.8
726,-0.00120,100.83
727,-0.00130,100.86
728,-0.00130,100.85
729,-0.00150,100.89
730,-0.00150,100.91
731,-0.00160,100.93
732,-0.00170,100.96
733,-0.00160,100.94
734,-0.00170,100.95
735,-0.00160,100.92
736,-0.00150,100.89
737,-0.00140,100.87
738,-0.00120,100.84
739,-0.00100,100.79
740,-0.00070,100.74
741,-0.00060,100.7
742,-0.00050,100.68
743,-0.00050,100.64
744,-0.00040,100.62
745,-0.00020,100.6
746,-0.00020,100.57
747,-0.00010,100.57
748,0.00000,100.55
749,0.00000,100.56
750,0.00000,100.55
751,0.00000,100.55
752,0.00000,100.56
753,0.00000,100.54
754,0.00000,100.54
755,0.00000,100.55
756,0.00000,100.53
757,0.00000,100.54
758,0.00000,100.54
759,0.00000,100.54
760,0.00000,100.54
761,0.00000,100.57
762,0.00000,100.54
763,-0.00010,100.55
764,-0.00020,100.55
765,-0.00010,100.55
766,-0.00010,100.54
767,-0.00010,100.55
768,-0.00020,100.54
769,-0.00020,100.57
770,-0.00020,100.58
771,-0.00010,100.59
772,-0.00020,100.59
773,-0.00030,100.59
774,-0.00020,100.58
775,-0.00030,100.59
776,-0.00020,100.58
777,-0.00020,100.58
778,-0.00030,100.59
779,-0.00030,100.61
780,-0.00040,100.62
781,-0.00040,100.64
782,-0.00030,100.63
783,-0.00040,100.64
784,-0.00040,100.65
785,-0.00040,100.66
786,-0.00050,100.66
787,-0.00030,100.66
788,-0.00050,100.67
789,-0.00050,100.66
790,-0.00060,100.67
791,-0.00060,100.68
792,-0.00060,100.69
793,-0.00060,100.69
794,-0.00070,100.71
795,-0.00070,100.71
796,-0.00080,100.73
797,-0.00070,100.72
798,-0.00080,100.73
799,-0.00080,100.74
800,-0.00090,100.75
801,-0.00090,100.78
802,-0.00090,100.78
803,-0.00090,100.79
804,-0.00100,100.79
805,-0.00110,100.8
806,-0.00110,100.81
807,-0.00110,100.81
808,-0.00120,100.82
809,-0.00120,100.83
810,-0.00120,100.84
811,-0.00130,100.86
812,-0.00130,100.86
813,-0.00140,100.87
814,-0.00130,100.85
815,-0.00130,100.85
816,-0.00130,100.85
817,-0.00130,100.85
818,-0.00130,100.88
819,-0.00140,100.89
820,-0.00140,100.87
821,-0.00140,100.88
822,-0.00150,100.9
823,-0.00150,100.93
824,-0.00170,100.96
825,-0.00180,101
826,-0.00180,101.02
827,-0.00200,101.06
828,-0.00220,101.1
829,-0.00230,101.12
830,-0.00250,101.15
831,-0.00240,101.15
832,-0.00250,101.15
833,-0.00230,101.08
834,-0.00210,101.05
835,-0.00200,101.02
836,-0.00170,100.95
837,-0.00150,100.92
838,-0.00140,100.87
839,-0.00120,100.83
840,-0.00110,100.81
841,-0.00090,100.77
842,-0.00090,100.76
843,-0.00070,100.75
844,-0.00070,100.73
845,-0.00070,100.73
846,-0.00070,100.73
847,-0.00080,100.73
848,-0.00070,100.74
849,-0.00070,100.72
850,-0.00070,100.72